{
  "type": "transaction",
  "entry": [
    {
      "fullUrl": "urn:uuid:a24eb240-9ea3-4fa5-b12d-b798587879d7",
      "resource": {
        "id": "907",
        "meta": {
          "profile": [
            "http://hl7.org/fhir/us/core/StructureDefinition/us-core-patient"
          ]
        },
        "text": {
          "status": "generated",
          "div": "<div xmlns=\"http://www.w3.org/1999/xhtml\">Sample patient derived from US Core v7.0.0 examples</div>"
        },
        "extension": [
          {
            "url": "http://hl7.org/fhir/us/core/StructureDefinition/us-core-sex",
            "valueCode": "248152002"
          },
          {
            "url": "http://hl7.org/fhir/us/core/StructureDefinition/us-core-genderIdentity",
            "valueCodeableConcept": {
              "coding": [
                {
                  "system": "http://terminology.hl7.org/CodeSystem/v3-NullFlavor",
                  "code": "ASKU",
                  "display": "asked but unknown"
                }
              ]
            }
          }
        ],
        "identifier": [
          {
            "system": "https://github.com/inferno-framework/us-core-test-kit",
            "value": "a24eb240-9ea3-4fa5-b12d-b798587879d7"
          }
        ],
        "name": [
          {
            "family": "Baxter",
            "given": [
              "Amy",
              "V."
            ],
            "suffix": [
              "PharmD"
            ],
            "period": {
              "start": "2020-07-22"
            }
          }
        ],
        "gender": "female",
        "birthDate": "1987-02-20",
        "resourceType": "Patient"
      },
      "request": {
        "method": "PUT",
        "url": "Patient/907"
      }
    },
    {
      "fullUrl": "urn:uuid:4fedd1a7-a5fa-444a-8b1b-05f19db339d0",
      "resource": {
        "resourceType": "Encounter",
        "id": "4fedd1a7-a5fa-444a-8b1b-05f19db339d0",
        "meta": {
          "profile": [
            "http://hl7.org/fhir/us/core/StructureDefinition/us-core-encounter"
          ]
        },
        "identifier": [
          {
            "system": "https://github.com/inferno-framework/us-core-test-kit",
            "value": "4fedd1a7-a5fa-444a-8b1b-05f19db339d0"
          }
        ],
        "status": "finished",
        "class": {
          "system": "http://terminology.hl7.org/CodeSystem/v3-ActCode",
          "code": "AMB",
          "display": "ambulatory"
        },
        "type": [
          {
            "coding": [
              {
                "system": "http://www.ama-assn.org/go/cpt",
                "code": "99211"
              }
            ],
            "text": "Office Visit"
          }
        ],
        "subject": {
          "reference": "urn:uuid:a24eb240-9ea3-4fa5-b12d-b798587879d7"
        }
      },
      "request": {
        "method": "POST",
        "url": "Encounter"
      }
    },
    {
      "fullUrl": "urn:uuid:530fc3a1-4f43-4144-9cd6-6593a7b374bb",
      "resource": {
        "id": "530fc3a1-4f43-4144-9cd6-6593a7b374bb",
        "meta": {
          "profile": [
            "http://hl7.org/fhir/us/core/StructureDefinition/us-core-provenance"
          ]
        },
        "target": [
          {
            "reference": "urn:uuid:a24eb240-9ea3-4fa5-b12d-b798587879d7"
          },
          {
            "reference": "urn:uuid:4fedd1a7-a5fa-444a-8b1b-05f19db339d0"
          }
        ],
        "recorded": "2023-02-28T15:26:23.217+00:00",
        "agent": [
          {
            "type": {
              "coding": [
                {
                  "system": "http://terminology.hl7.org/CodeSystem/provenance-participant-type",
                  "code": "informant",
                  "display": "Informant"
                }
              ],
              "text": "Informant"
            },
            "who": {
              "reference": "urn:uuid:a24eb240-9ea3-4fa5-b12d-b798587879d7",
              "display": "Amy Baxter"
            }
          }
        ],
        "resourceType": "Provenance"
      },
      "request": {
        "method": "POST",
        "url": "Provenance"
      }
    }
  ],
  "resourceType": "Bundle"
}