{
  "type": "transaction",
  "entry": [
        {
      "fullUrl": "urn:uuid:ffe659c3-5f25-4d75-bd20-fa0956583710",
      "resource": {
        "id": "908",
        "meta": {
          "profile": [
            "http://hl7.org/fhir/us/core/StructureDefinition/us-core-patient"
          ]
        },
        "text": {
          "status": "generated",
          "div": "<div xmlns=\"http://www.w3.org/1999/xhtml\">Sample patient derived from US Core v8.0.0 examples</div>"
        },
        "extension": [
          {
            "url" : "http://hl7.org/fhir/us/core/StructureDefinition/us-core-sex",
            "valueCoding" : {
              "system" : "http://snomed.info/sct",
              "version" : "http://snomed.info/sct/731000124108",
              "code" : "248153007",
              "display" : "Male (finding)"
            }
          }
        ],
        "identifier": [
          {
            "system": "https://github.com/inferno-framework/us-core-test-kit",
            "value": "ffe659c3-5f25-4d75-bd20-fa0956583710"
          }
        ],
        "name": [
          {
            "family" : "Example",
            "given" : [
              "Child"
            ]
          }
        ],
        "birthDate": "2016-01-15",
        "resourceType": "Patient"
      },
      "request": {
        "method": "PUT",
        "url": "Patient/908"
      }
    },
    {
      "fullUrl": "urn:uuid:ee087a9f-8421-4d33-96ae-926ae1ceee22",
      "resource": {
        "resourceType" : "Organization",
        "id" : "ee087a9f-8421-4d33-96ae-926ae1ceee22",
        "meta" : {
          "profile" : [
            "http://hl7.org/fhir/us/core/StructureDefinition/us-core-organization|8.0.0"
          ]
        },
        "text" : {
          "status" : "generated",
          "div" : "<div xmlns=\"http://www.w3.org/1999/xhtml\">Organization for US Core v8.0.0 example</div>"
        },
        "identifier" : [
          {
            "system": "https://infenro.healthit.gov",
            "value" : "ee087a9f-8421-4d33-96ae-926ae1ceee22"
          }
        ],
        "active" : true,
        "name" : "Acme Clinic"
      },
      "request": {
        "method": "POST",
        "url": "Organization"
      }
    },
    {
      "fullUrl": "urn:uuid:145b5b1b-1985-4d36-8375-a020c5cb44ab",
      "resource": {
        "id": "145b5b1b-1985-4d36-8375-a020c5cb44ab",
        "meta": {
          "profile": [
            "http://hl7.org/fhir/us/core/StructureDefinition/us-core-provenance"
          ]
        },
        "target": [
          {
            "reference": "urn:uuid:ffe659c3-5f25-4d75-bd20-fa0956583710"
          }
        ],
        "recorded": "2019-07-09T18:49:01+00:00",
        "agent": [
          {
            "type": {
              "coding": [
                {
                  "system": "http://terminology.hl7.org/CodeSystem/provenance-participant-type",
                  "code": "transmitter",
                  "display": "Transmitter"
                }
              ],
              "text": "Transmitter"
            },
            "who": {
              "reference": "urn:uuid:ee087a9f-8421-4d33-96ae-926ae1ceee22",
              "display": "Acme Clinic"
            }
          }
        ],
        "resourceType": "Provenance"
      },
      "request": {
        "method": "POST",
        "url": "Provenance"
      }
    }
  ],
  "resourceType": "Bundle"
}
